seconds,accX,accY,accZ
8.0,0.06,0.17,-1.04
9.0,0.06,0.16,-0.9
10.0,0.07,0.21,-0.93
11.0,-0.01,0.54,-0.82
12.0,-0.07,0.63,-0.68
13.0,-0.59,0.58,0.57
15.0,-0.27,0.58,0.91
16.0,-0.23,-0.11,1.06
17.0,-0.29,-0.02,0.99
18.0,-0.75,0.49,0.49
19.0,-0.89,0.33,0.16
20.0,-0.68,0.7,0.68
21.0,-0.56,0.11,0.92
22.0,-0.97,-0.04,0.43
23.0,-0.58,-0.14,0.77
25.0,-0.36,-0.72,0.94
26.0,-0.48,0.03,1.06
27.0,-0.66,-0.45,0.76
28.0,-0.48,-1.0,0.53
29.0,-0.45,-0.8,0.5
30.0,-0.92,-0.42,0.44
31.0,-0.56,-0.34,0.77
32.0,-0.41,-0.42,0.87
33.0,-0.76,-0.05,0.7
34.0,-0.64,0.11,0.8
36.0,-0.88,0.39,0.7
37.0,-0.82,0.66,0.71
38.0,-0.25,1.03,-0.35
39.0,-1.9,0.92,-0.02
40.0,-0.77,0.23,0.24
41.0,-1.23,0.12,0.21
42.0,-0.96,0.35,0.17
43.0,-1.12,0.06,-0.15
44.0,-0.84,0.51,-0.16
46.0,-0.87,0.78,-0.19
47.0,-1.71,0.89,0.55
48.0,-1.0,0.6,0.1
49.0,-0.42,-0.11,0.73
50.0,-1.66,1.11,-0.62
51.0,-2.0,1.15,1.32
52.0,-0.12,0.69,-0.68
53.0,-0.59,0.24,0.56
54.0,-2.0,0.43,-0.13
56.0,-2.0,0.86,0.74
57.0,-0.44,0.93,0.16
58.0,-0.42,-0.59,0.01
59.0,-0.99,0.24,0.29
60.0,-2.0,0.2,0.57
61.0,-1.14,-0.45,-0.21
62.0,-0.59,0.88,0.78
63.0,-0.73,0.59,-0.36
64.0,-0.59,-0.11,-0.86
65.0,-0.54,0.24,-0.39
67.0,0.46,-0.11,-0.1
68.0,-1.26,0.64,0.45
69.0,-0.53,1.57,-0.62
70.0,-1.03,0.19,-1.18
71.0,-2.0,0.26,0.48
72.0,0.34,-0.37,-1.41
73.0,-0.64,0.37,-0.74
74.0,-1.04,0.98,0.39
75.0,-1.8,0.67,1.37
77.0,-2.0,1.46,-0.33
78.0,-1.53,0.19,-0.9
79.0,0.47,0.65,0.45
80.0,-0.3,-1.75,0.19
81.0,-2.0,0.78,1.94
82.0,-2.0,0.67,0.35
83.0,0.08,-1.1,-1.14
84.0,0.03,0.02,0.49
85.0,0.59,-1.48,0.19
86.0,-1.68,0.36,-0.29
88.0,-1.55,0.02,0.47
89.0,-0.98,0.91,1.06
90.0,-0.36,0.77,0.42
91.0,-0.43,-0.39,-0.27
92.0,-0.79,-0.23,0.6
93.0,-2.0,0.83,0.09
94.0,-0.14,-1.68,-0.27
95.0,0.16,-0.13,0.27
96.0,1.01,-0.29,-0.38
98.0,-1.29,0.99,0.76
99.0,-2.0,0.51,0.19
100.0,-2.0,-0.56,1.6
101.0,0.59,1.18,0.34
102.0,-0.13,-0.59,-0.25
103.0,-1.27,0.09,-0.68
104.0,-0.44,-0.34,0.19
105.0,0.91,-0.29,-0.28
106.0,-2.0,1.41,0.12
108.0,-2.0,0.28,0.6
109.0,0.1,-0.27,-1.9
110.0,-0.33,1.42,-0.43
111.0,0.27,-0.81,0.09
112.0,-2.0,0.88,-1.07
113.0,-2.0,-0.06,0.13
114.0,-1.41,0.93,1.03
115.0,-0.4,0.17,1.11
116.0,-1.44,2.0,0.05
117.0,0.63,-0.55,-2.0
119.0,0.28,0.44,0.24
120.0,0.34,-0.57,-0.32
121.0,-2.0,0.24,-0.58
6.0,-1.25,1.19,-0.49
8.0,0.35,0.28,0.31
8.0,-2.0,0.04,0.41
9.0,-0.43,0.38,0.35
10.0,-1.93,1.53,-0.48
11.0,0.38,-0.69,-0.14
13.0,0.21,1.05,0.09
14.0,-0.3,-1.08,-0.0
15.0,-2.0,0.52,-0.32
16.0,-1.21,-0.29,-0.36
17.0,0.84,-0.52,0.03
18.0,-2.0,2.0,-0.57
19.0,-2.0,-0.1,0.75
20.0,-0.63,0.58,0.58
21.0,-0.94,0.19,0.66
22.0,-2.0,1.33,-0.02
24.0,-0.42,0.15,-0.54
25.0,-0.6,0.1,0.49
26.0,-2.0,0.67,0.12
27.0,0.1,0.54,-0.13
28.0,-0.72,0.31,1.08
29.0,-1.93,0.46,-0.65
30.0,-0.51,0.41,0.25
31.0,-1.38,0.04,1.13
32.0,-2.0,-0.1,0.21
34.0,-0.43,0.99,0.21
35.0,-1.59,0.9,-0.8
36.0,-2.0,0.07,0.36
37.0,-1.24,1.24,0.68
38.0,-1.09,0.28,0.83
39.0,-1.22,2.0,-0.59
40.0,-2.0,-0.64,-0.03
41.0,0.12,1.08,0.05
42.0,-0.49,-0.06,-0.38
43.0,-1.1,-0.26,-0.24
45.0,-0.3,0.22,0.26
46.0,0.38,-1.27,0.06
47.0,-1.61,0.94,-1.0
48.0,-2.0,0.65,1.19
49.0,-1.28,0.23,0.06
50.0,-1.56,0.59,-0.59
51.0,-2.0,0.22,0.25
52.0,-0.0,0.18,0.26
53.0,-0.56,0.79,-0.05
55.0,-1.49,1.25,-0.45
56.0,-2.0,-0.7,1.53
57.0,-0.26,0.87,0.14
58.0,-1.06,0.79,-0.38
59.0,-1.9,0.19,-2.0
60.0,-0.34,1.11,0.06
61.0,-0.18,-0.14,-0.44
62.0,0.08,-0.32,-1.4
63.0,0.25,0.91,-0.29
65.0,-0.2,0.25,-0.47
66.0,-0.12,-0.43,-0.46
67.0,0.03,1.06,0.55
68.0,-0.22,-1.15,-0.14
69.0,-2.0,0.54,-0.53
70.0,-0.86,-0.2,-0.4
71.0,0.76,-0.58,-0.22
8.0,-0.46,-0.69,0.02
9.0,-0.92,-0.11,-0.51
10.0,-0.6,-0.13,0.46
11.0,-2.0,0.43,0.24
13.0,-1.05,0.97,0.64
14.0,-1.14,0.47,0.03
15.0,-2.0,-0.03,0.13
16.0,-0.05,-0.04,-0.91
17.0,-0.42,0.32,0.24
18.0,-1.51,0.6,-0.0
19.0,-1.44,-2.0,1.67
20.0,0.03,1.9,0.13
21.0,-0.12,-0.41,-0.16
22.0,-2.0,0.56,-1.05
24.0,-2.0,1.04,0.7
25.0,-1.94,1.59,1.43
26.0,-0.61,0.35,0.71
27.0,-0.47,0.62,-0.47
28.0,-1.29,-0.18,-0.62
29.0,-1.86,0.29,0.73
30.0,-0.95,-0.94,1.39
6.0,0.7,0.07,0.06
7.0,-2.0,1.21,0.28
8.0,-2.0,0.62,0.05
9.0,-2.0,0.88,2.0
11.0,0.22,1.34,0.42
12.0,0.25,-1.06,0.03
13.0,-1.57,0.88,-0.13
14.0,-2.0,0.32,0.24
15.0,0.08,-0.03,-0.09
16.0,-0.36,1.5,-0.62
17.0,-0.16,-0.92,-0.06
18.0,-2.0,1.27,-1.36
19.0,-2.0,0.36,0.5
20.0,0.47,-0.12,-0.27
22.0,-0.23,0.73,0.43
23.0,0.05,-0.1,-0.43
24.0,-1.82,0.04,-0.46
25.0,-2.0,1.12,0.35
26.0,-1.55,1.09,0.92
27.0,-0.14,1.78,-0.21
28.0,0.56,-0.99,-0.17
29.0,-1.37,0.54,-0.99
30.0,-2.0,0.61,0.55
32.0,0.66,-1.01,-0.41
33.0,0.24,0.15,0.23
37.0,-0.68,0.36,0.72
38.0,-0.61,0.07,0.9
39.0,-1.1,0.67,-0.21
40.0,-2.0,-0.08,-0.27
41.0,-2.0,1.63,0.62
43.0,-0.28,0.34,1.08
44.0,0.07,1.58,-0.55
45.0,-0.41,-0.55,-0.09
46.0,-1.77,0.2,-0.7
47.0,-2.0,1.74,1.58
48.0,-2.0,1.24,0.59
49.0,-0.79,0.71,1.12
50.0,-1.62,0.47,-0.41
51.0,-2.0,0.97,-1.16
53.0,-2.0,1.93,1.0
54.0,-1.73,0.64,0.91
55.0,-0.78,0.46,0.43
56.0,-1.97,0.84,-0.29
57.0,-0.06,-0.7,-0.98
58.0,-0.22,-0.3,0.21
59.0,0.52,-1.47,0.27
60.0,-1.23,0.76,-1.26
61.0,-2.0,0.53,0.54
63.0,-1.0,1.41,1.15
64.0,-0.42,0.15,-0.03
65.0,-0.92,0.3,-0.42
66.0,0.57,-0.74,-0.84
67.0,0.31,0.78,0.25
68.0,-0.32,-0.33,-0.04
69.0,-0.81,-0.25,-0.89
70.0,-0.16,0.97,-0.01
71.0,-2.0,1.09,-0.32
73.0,-1.11,-0.61,-0.53
74.0,-0.15,0.75,-0.31
75.0,-0.89,0.43,-0.75
76.0,-2.0,0.08,-0.55
77.0,-2.0,2.0,1.25
78.0,-1.41,1.34,1.14
79.0,-0.58,0.46,0.21
80.0,-0.64,0.34,-0.44
81.0,-2.0,0.22,0.36
82.0,-2.0,0.81,-1.05
84.0,-1.82,0.82,-0.08
85.0,-0.57,0.23,0.76
86.0,-1.52,0.19,-0.22
87.0,-1.5,0.06,-0.04
88.0,-1.07,0.35,-0.12
89.0,-1.31,0.25,-0.1
90.0,-1.39,0.35,0.86
91.0,-1.18,1.73,-0.31
92.0,0.45,-0.89,-0.44
94.0,-0.27,0.52,0.42
95.0,0.21,-0.84,0.12
96.0,-2.0,-0.0,0.4
97.0,-1.39,-0.27,-0.49
98.0,0.12,0.2,0.13
99.0,-2.0,1.44,2.0
8.0,-1.49,0.78,-0.93
9.0,-2.0,-0.15,0.16
10.0,-0.64,-0.07,-1.06
11.0,-0.01,1.69,-0.06
12.0,-0.14,-0.48,-0.16
6.0,-0.75,0.69,-0.62
7.0,-2.0,0.59,-1.27
8.0,-2.0,0.24,0.86
9.0,-1.57,1.32,0.77
10.0,-0.89,0.52,0.85
11.0,-0.92,0.62,-0.47
13.0,-1.39,0.06,-1.2
14.0,-1.01,-0.37,-0.61
15.0,0.02,0.29,-0.29
8.0,-0.63,-0.07,-0.23
9.0,0.03,-1.06,0.25
10.0,-2.0,0.56,-0.32
11.0,-1.82,-0.01,-0.47
13.0,0.16,0.01,0.27
14.0,-1.99,2.0,2.0
15.0,-2.0,-0.24,-0.39
16.0,0.11,0.03,-0.2
17.0,-0.85,0.49,0.98
18.0,-1.6,1.28,-0.65
19.0,-2.0,-0.74,2.0
20.0,-0.12,1.01,0.03
21.0,-0.69,0.0,-0.17
22.0,-2.0,-0.34,-0.18
24.0,-1.09,-0.62,0.21
25.0,0.86,-0.21,0.0
26.0,-1.79,0.56,-1.22
27.0,-2.0,0.14,0.12
28.0,-0.2,0.6,-0.05
29.0,-1.97,1.53,2.0
30.0,-2.0,0.03,0.45
31.0,-1.0,0.17,0.68
32.0,-0.84,0.28,0.7
34.0,-1.23,0.76,-1.07
35.0,-0.55,-0.24,-0.75
36.0,-0.56,0.67,0.99
37.0,-1.72,1.15,-0.19
38.0,-1.4,-0.36,-0.08
39.0,-0.05,1.56,0.49
40.0,0.01,-0.87,-0.15
41.0,-2.0,-0.12,-0.08
8.0,0.78,-0.64,-0.12
9.0,-2.0,0.66,-1.36
10.0,-2.0,0.16,0.42
11.0,-1.18,1.14,0.07
12.0,-1.44,0.53,0.55
13.0,-1.16,0.62,-1.11
15.0,-2.0,-0.0,-0.18
6.0,-0.45,0.56,0.65
7.0,-1.91,1.37,-0.13
8.0,-0.37,-0.79,0.48
9.0,0.4,1.07,0.32
11.0,0.16,-1.21,0.02
12.0,-2.0,1.21,-1.78
13.0,-1.2,-0.02,-0.21
14.0,0.67,-0.05,0.36
15.0,-2.0,1.99,2.0
16.0,-1.97,1.35,-1.15
17.0,-2.0,-0.97,2.0
18.0,-0.09,1.67,-0.28
19.0,-0.67,-0.2,-0.38
20.0,-0.64,-0.63,-0.91
22.0,-0.03,0.32,0.27
23.0,0.23,-1.1,0.13
24.0,-1.6,-0.06,-0.19
25.0,-2.0,-0.28,0.23
26.0,-1.19,1.78,0.56
27.0,-0.86,0.31,0.23
28.0,0.12,-0.95,0.04
29.0,-2.0,0.79,-1.29
30.0,-2.0,-0.55,0.31
32.0,-1.1,0.64,0.2
33.0,-2.0,1.05,2.0
34.0,-2.0,-0.65,0.7
35.0,-0.61,1.28,0.67
36.0,-0.81,0.32,0.72
37.0,-2.0,-0.07,0.1
38.0,-1.52,1.3,0.85
39.0,-1.86,0.52,0.9
40.0,-2.0,0.41,-0.28
41.0,-0.43,1.34,0.91
43.0,-1.62,0.63,-0.91
44.0,-1.5,0.33,-0.84
45.0,0.7,-0.15,0.13
46.0,-1.43,1.4,-1.02
47.0,-2.0,-0.07,0.43
48.0,-2.0,-0.61,-0.73
49.0,-0.25,1.73,-0.36
50.0,0.4,-1.39,-0.11
51.0,-2.0,0.62,-1.5
53.0,-2.0,1.0,0.45
54.0,-0.66,1.29,0.1
55.0,-1.33,0.31,0.95
56.0,-2.0,0.74,-0.37
57.0,-1.44,-0.77,0.61
58.0,-0.5,0.3,-0.0
59.0,-1.12,0.6,-0.67
60.0,-0.25,-0.29,-0.8
61.0,-0.53,0.0,0.65
62.0,0.89,-0.33,-0.11
64.0,-1.54,0.56,-0.64
65.0,-2.0,-0.3,0.47
66.0,-0.73,0.92,0.15
67.0,-1.34,0.49,0.55
68.0,-1.48,0.89,-0.54
69.0,-0.52,-0.56,-0.94
70.0,0.11,1.02,0.29
71.0,-0.95,0.33,-0.49
6.0,-1.94,0.52,-0.81
7.0,-2.0,1.37,1.02
9.0,0.18,1.47,0.18
10.0,0.35,-1.63,0.1
11.0,-2.0,0.4,-2.0
12.0,-1.16,0.79,-1.17
14.0,-1.21,0.05,0.02
15.0,-1.24,-0.05,0.68
16.0,-2.0,1.58,-0.2
17.0,-2.0,0.14,-0.4
18.0,0.04,1.69,-0.27
19.0,-0.2,-0.88,-0.27
20.0,-2.0,0.43,-1.11
21.0,-1.71,0.18,-1.07
22.0,0.07,-0.25,0.29
23.0,-1.79,0.96,-0.74
25.0,-2.0,-0.1,0.01
26.0,0.13,0.89,-0.64
27.0,-0.13,1.23,0.04
28.0,-1.22,0.51,-0.45
29.0,0.04,-0.83,-0.22
30.0,-0.04,0.56,0.26
31.0,0.03,-1.25,-0.01
32.0,-2.0,0.31,-1.29
33.0,-1.43,0.12,-0.5
35.0,-0.26,0.14,0.41
36.0,-0.98,-0.26,0.41
37.0,-1.22,0.89,-0.49
38.0,-2.0,-0.23,-0.5
39.0,0.1,1.46,0.21
40.0,-0.2,-1.35,0.02
41.0,-2.0,0.31,0.2
42.0,-2.0,1.66,0.9
43.0,-1.36,0.59,0.44
44.0,-1.15,0.09,0.72
46.0,-2.0,0.21,-0.5
47.0,-0.18,1.07,-0.23
48.0,-0.31,0.35,0.66
49.0,-1.5,1.86,0.14
50.0,-2.0,-1.3,2.0
51.0,-0.25,1.05,-0.05
52.0,-1.03,0.41,-0.42
53.0,0.07,-0.81,0.39
54.0,-0.03,1.32,-0.13
56.0,-0.19,-0.15,-0.39
57.0,-0.18,-0.84,0.12
58.0,0.15,1.11,0.04
59.0,-0.89,0.24,-0.39
60.0,0.19,-0.15,-1.11
61.0,0.15,0.76,0.37
62.0,-1.53,0.55,-0.38
63.0,-1.1,-0.31,0.5
64.0,-0.14,0.59,0.07
65.0,-1.01,0.14,-0.33
67.0,-0.56,-0.06,-0.28
68.0,-0.5,-0.07,-0.07
69.0,0.93,-0.07,-0.01
70.0,-1.83,0.67,-0.63
71.0,-2.0,-0.06,0.23
72.0,-0.7,-0.45,-0.85
73.0,-0.61,0.56,0.64
74.0,-1.78,1.12,-0.17
75.0,-0.25,-0.4,-0.4
77.0,0.1,1.46,0.41
78.0,-0.21,-1.0,0.11
79.0,-1.99,-0.11,-0.51
80.0,-0.69,-0.4,0.33
81.0,0.64,-0.01,0.05
82.0,-1.48,0.77,-0.63
83.0,-2.0,-0.29,0.46
84.0,-1.06,0.62,-0.03
85.0,-1.33,0.33,0.95
87.0,-2.0,0.77,-0.38
88.0,-1.9,-0.53,1.41
89.0,-0.03,1.14,-0.35
90.0,-2.0,1.74,1.02
91.0,-0.24,-0.39,-0.55
92.0,-0.54,0.4,-0.35
8.0,-0.58,0.94,0.44
9.0,-1.25,0.26,1.04
10.0,-1.65,1.96,0.54
11.0,-0.28,-0.7,0.16
12.0,0.41,0.99,0.16
13.0,1.0,-1.37,0.09
15.0,-1.21,0.39,-0.86
16.0,-2.0,0.53,0.04
17.0,-1.58,0.59,0.5
18.0,-1.25,0.1,0.73
19.0,-1.61,0.3,-1.0
20.0,-1.1,-0.78,0.23
21.0,-0.39,0.52,1.08
22.0,-1.75,0.66,-0.2
23.0,-2.0,-0.08,2.0
25.0,-0.82,0.08,0.21
26.0,-1.11,0.22,-0.04
27.0,-0.49,0.6,0.01
28.0,-0.22,0.78,-0.72
29.0,0.57,1.32,-0.13
30.0,0.75,0.62,0.09
31.0,0.66,0.07,-0.28
32.0,0.99,0.13,0.32
33.0,1.02,0.27,0.31
34.0,0.92,0.01,0.17
36.0,0.93,0.38,0.39
37.0,0.51,0.41,0.11
38.0,0.8,0.18,0.35
39.0,0.12,-0.48,-0.99
40.0,0.27,-0.42,-0.94
41.0,0.6,-0.08,-0.6
42.0,0.3,-0.25,-0.87
43.0,0.28,-0.25,-0.86
44.0,0.31,-0.24,-0.89
46.0,0.31,-0.23,-0.91
