seconds,accX,accY,accZ
112.0,0.42,-0.14,-0.8
113.0,0.43,-0.15,-0.82
114.0,0.47,-0.13,-0.85
8.0,0.53,-0.09,-0.85
9.0,0.53,-0.09,-0.8
10.0,0.52,-0.11,-0.84
11.0,0.39,-0.14,-0.89
13.0,0.62,0.14,-0.62
14.0,0.54,0.02,-0.63
15.0,-0.36,0.18,-0.79
16.0,0.18,0.29,-0.84
17.0,0.54,0.07,-0.67
18.0,0.66,-0.15,-0.82
19.0,0.66,0.02,-0.75
20.0,0.7,0.48,-0.36
21.0,0.71,0.26,-0.14
22.0,0.76,0.18,-0.57
24.0,0.79,0.21,-0.56
25.0,0.94,0.11,-0.37
26.0,0.62,0.42,-0.74
27.0,0.15,0.54,-1.02
28.0,0.16,0.43,-0.8
29.0,-0.73,1.2,-0.62
30.0,-0.55,0.84,-0.53
31.0,-0.58,1.1,-0.28
32.0,-0.25,1.24,0.22
34.0,-0.18,1.17,0.16
35.0,-0.33,1.15,0.19
36.0,-0.28,0.98,0.53
37.0,0.01,0.9,-0.17
38.0,-0.83,0.63,0.37
39.0,-0.93,0.75,-0.09
40.0,-0.67,0.63,-0.09
41.0,-0.64,0.55,0.09
42.0,-0.76,0.74,-0.0
43.0,-0.94,0.61,0.24
45.0,-0.93,0.62,0.24
46.0,-0.92,0.7,0.08
47.0,-0.81,0.93,0.0
48.0,-0.97,0.71,0.11
49.0,-0.94,0.67,0.24
50.0,-0.98,0.47,-0.11
51.0,-0.79,0.55,-0.08
52.0,-0.76,0.53,0.02
53.0,-0.78,0.52,-0.0
55.0,-0.74,0.41,0.09
56.0,-0.79,0.23,0.07
57.0,-0.8,0.26,0.2
58.0,-0.78,0.25,0.06
59.0,-0.71,0.24,0.13
60.0,-0.73,0.27,0.27
61.0,-0.74,0.33,0.01
62.0,-0.73,0.38,0.08
63.0,-0.67,0.43,0.13
64.0,-0.7,0.49,0.06
66.0,-0.61,0.8,0.09
67.0,-0.88,0.65,0.23
68.0,-0.86,0.8,0.1
69.0,-0.74,1.11,0.16
70.0,-0.99,1.24,-0.12
71.0,-1.27,1.11,0.19
72.0,-1.6,0.13,-0.19
73.0,-1.54,0.49,-0.26
74.0,-1.72,0.79,0.38
76.0,-1.11,0.66,0.31
77.0,-0.85,0.63,0.07
78.0,-0.7,0.7,-0.88
79.0,-0.11,0.42,-0.08
80.0,-0.32,-0.14,0.07
81.0,-0.43,-0.18,0.06
82.0,-0.41,-0.27,-0.08
83.0,-0.04,-0.11,0.26
84.0,-0.94,1.23,1.67
86.0,-2.0,0.95,2.0
87.0,-0.16,-0.27,0.94
88.0,-1.56,0.18,0.93
89.0,-1.45,2.0,0.35
90.0,-0.01,-0.27,-0.9
91.0,-0.52,-2.0,1.22
92.0,-0.7,0.15,-1.3
93.0,-1.61,1.33,-0.97
94.0,-0.26,1.57,0.59
95.0,-0.58,0.44,-0.14
97.0,-0.71,0.18,0.23
98.0,-0.73,0.43,0.15
99.0,-0.69,0.58,-0.03
100.0,-0.85,0.83,0.01
101.0,-0.79,1.22,-0.18
102.0,-1.1,0.91,0.37
103.0,-1.26,1.05,0.2
104.0,-1.39,0.4,-0.17
105.0,-1.76,0.58,0.0
107.0,-1.2,0.53,0.37
108.0,-0.69,0.58,-0.95
109.0,-0.32,0.66,-0.71
110.0,-0.11,-0.06,-0.29
111.0,-0.29,-0.2,-0.11
112.0,-0.15,-0.19,0.24
113.0,-0.54,0.82,0.92
114.0,-2.0,0.97,2.0
115.0,-0.03,-0.14,0.05
116.0,-1.67,0.5,0.8
118.0,-2.0,1.05,0.33
119.0,-1.69,1.95,-0.55
120.0,-0.97,1.73,-0.44
121.0,-0.13,-0.86,-0.25
122.0,-0.8,-0.45,2.0
123.0,-1.0,0.58,-1.51
124.0,-1.64,0.78,-1.13
125.0,-0.74,0.74,-0.08
126.0,-0.71,0.69,-0.17
128.0,-0.73,0.21,0.13
129.0,-0.7,0.34,0.2
130.0,-0.67,0.52,-0.1
131.0,-0.78,0.82,-0.07
132.0,-0.93,0.57,0.16
133.0,-0.72,1.15,-0.2
134.0,-1.03,0.95,0.35
135.0,-1.18,1.45,0.08
136.0,-1.07,0.65,0.19
138.0,-1.36,0.43,-0.24
139.0,-1.98,0.72,-0.04
140.0,-1.59,0.45,-0.3
141.0,-1.72,0.58,-0.1
142.0,-1.83,0.62,-0.06
143.0,-1.6,0.38,0.12
144.0,-1.12,0.47,0.47
145.0,-0.88,0.7,0.36
146.0,-0.64,0.61,-1.0
147.0,-0.24,0.8,-0.33
149.0,-0.12,-0.06,0.14
150.0,-0.22,-0.3,-0.12
151.0,-0.22,-0.24,-0.08
152.0,-0.18,-0.11,-0.1
153.0,-0.11,-0.21,0.16
154.0,-0.53,0.73,0.8
155.0,-0.82,0.99,1.32
156.0,-2.0,2.0,1.65
157.0,-2.0,1.96,1.76
159.0,-0.24,-0.81,0.68
160.0,0.08,-0.5,0.25
161.0,-0.48,-0.52,0.44
162.0,-1.17,-0.3,0.73
163.0,-1.64,1.37,0.48
164.0,-1.76,2.0,-0.16
165.0,-0.38,0.03,-0.56
166.0,-0.95,-1.87,1.91
167.0,-0.9,0.4,-2.0
168.0,-1.77,0.99,-0.86
170.0,-1.62,1.41,-0.96
171.0,-0.17,0.94,-0.32
172.0,-0.56,0.4,-0.37
173.0,-0.6,0.24,0.06
174.0,-0.66,0.52,0.05
175.0,-0.67,0.47,-0.09
176.0,-0.75,0.64,-0.08
177.0,-0.65,0.87,0.02
178.0,-0.85,0.58,0.09
180.0,-0.89,0.96,-0.04
181.0,-0.91,0.93,-0.03
182.0,-1.24,1.28,0.08
183.0,-1.27,0.97,0.16
184.0,-1.28,0.24,0.11
185.0,-1.76,0.54,-0.08
186.0,-1.83,0.43,0.01
187.0,-1.43,0.56,0.28
188.0,-0.85,0.6,0.22
189.0,-0.54,0.7,-0.71
191.0,-0.32,0.46,-0.77
192.0,-0.06,-0.15,-0.03
193.0,-0.28,-0.33,-0.01
194.0,-0.16,-0.17,0.22
195.0,-0.48,0.78,0.83
196.0,-2.0,2.0,1.86
197.0,-0.95,0.29,1.61
198.0,-0.02,-0.39,0.29
199.0,-0.79,0.08,0.51
201.0,0.38,0.29,0.43
202.0,-1.87,1.99,1.27
203.0,-0.51,0.18,0.28
204.0,-0.6,0.58,0.75
205.0,-2.0,2.0,1.23
206.0,-2.0,2.0,1.66
207.0,-0.12,-0.68,0.66
208.0,-1.96,2.0,0.09
209.0,-0.35,0.53,-0.28
211.0,-0.54,-1.59,0.95
212.0,-0.91,0.38,-1.44
213.0,-1.78,2.0,-0.22
214.0,-0.7,0.67,0.05
215.0,-0.63,0.05,0.12
216.0,-0.72,0.41,0.14
217.0,-0.77,0.45,-0.12
218.0,-0.85,0.66,0.15
219.0,-0.73,1.24,0.0
220.0,-1.3,1.3,0.1
222.0,-1.31,0.23,0.04
223.0,-1.69,0.43,0.13
224.0,-0.98,0.68,0.51
225.0,-0.77,0.59,-0.79
226.0,0.01,0.47,-0.07
227.0,-0.11,-0.06,0.06
228.0,-0.24,-0.48,-0.02
229.0,-0.17,-0.17,-0.07
230.0,-0.23,-0.18,0.32
232.0,-0.75,0.82,1.04
233.0,-2.0,1.72,1.86
234.0,-0.46,-0.74,0.52
235.0,-2.0,2.0,-0.99
236.0,-0.27,-1.75,0.54
237.0,-0.89,0.02,-1.32
238.0,-1.44,1.37,-0.79
239.0,-0.4,0.41,-0.1
240.0,-0.58,0.08,0.19
241.0,-0.69,0.4,0.13
243.0,-0.74,0.58,0.02
244.0,-0.52,0.82,0.17
245.0,-1.03,0.76,0.09
246.0,-0.81,1.08,0.24
247.0,-1.14,1.39,-0.04
248.0,-1.18,0.43,0.12
249.0,-1.44,0.41,-0.17
250.0,-1.66,0.4,0.02
251.0,-1.27,0.48,0.58
253.0,-0.99,0.61,-0.1
254.0,-0.44,0.5,-0.79
255.0,-0.13,0.35,-0.65
256.0,0.09,-0.22,0.27
257.0,-0.16,-0.31,-0.21
258.0,-0.22,-0.3,-0.12
259.0,-0.14,-0.12,0.2
260.0,-0.42,0.64,0.58
261.0,-2.0,1.95,1.97
262.0,-1.28,0.39,1.51
264.0,0.42,-0.66,0.16
265.0,-1.27,0.11,0.97
266.0,-1.75,1.18,0.63
267.0,-1.54,1.88,0.47
268.0,-0.94,1.68,-0.03
269.0,0.15,-1.27,-0.75
270.0,-0.96,-0.28,0.88
271.0,-1.79,0.91,-1.25
272.0,-0.9,0.24,-0.13
274.0,-1.41,2.0,1.23
275.0,-0.64,1.71,1.16
276.0,-0.6,0.65,-0.17
277.0,-0.73,0.56,0.16
278.0,-0.68,0.35,-0.23
279.0,-0.56,0.36,-0.04
280.0,-0.63,0.31,0.15
281.0,-0.79,0.42,0.14
282.0,-0.68,0.3,0.1
284.0,-0.69,0.44,-0.14
285.0,-0.64,0.83,0.0
286.0,-0.74,0.67,0.19
287.0,-0.92,0.89,-0.08
288.0,-0.85,1.13,-0.18
289.0,-1.01,1.11,0.3
290.0,-1.17,1.38,0.07
291.0,-1.27,1.13,-0.04
413.0,-0.81,0.5,0.18
414.0,-0.67,0.37,0.02
415.0,-0.64,0.49,-0.06
416.0,-0.64,0.52,0.09
417.0,-0.89,0.76,0.08
418.0,-1.02,0.94,-0.09
420.0,-0.83,0.98,0.01
421.0,-0.93,1.0,0.38
422.0,-1.04,1.23,0.14
423.0,-0.97,1.5,-0.24
424.0,-1.13,1.28,-0.09
425.0,-1.03,1.0,0.17
426.0,-0.97,0.81,0.4
427.0,-1.27,0.55,0.36
428.0,-1.38,0.38,0.08
430.0,-1.47,0.63,-0.11
431.0,-1.88,0.78,0.15
432.0,-1.66,0.35,0.54
433.0,-1.12,0.71,0.41
434.0,-0.83,0.73,-0.26
435.0,-0.81,0.78,-1.11
436.0,-0.07,0.37,-0.19
437.0,-0.13,-0.24,-0.16
438.0,-0.14,-0.39,-0.09
439.0,-0.27,0.27,0.33
441.0,-1.3,1.36,1.39
442.0,-1.67,0.85,1.7
443.0,-0.33,0.07,1.23
444.0,-0.12,-0.5,0.45
445.0,-1.78,1.8,0.68
446.0,-2.0,2.0,-1.21
447.0,-0.58,1.27,-0.28
448.0,0.1,-1.32,-1.16
449.0,-0.74,-0.18,-0.39
451.0,-1.58,1.02,-1.36
452.0,-1.6,2.0,-0.53
453.0,-0.13,0.87,-0.08
454.0,-0.53,0.69,-0.21
455.0,-0.72,0.36,0.07
456.0,-0.7,0.23,0.17
457.0,-0.66,0.42,0.02
458.0,-0.49,0.84,-0.02
459.0,-0.91,0.75,0.07
460.0,-0.62,1.01,0.32
462.0,-1.09,1.47,-0.24
463.0,-1.17,0.62,0.24
464.0,-1.57,0.54,-0.18
465.0,-1.77,0.72,-0.0
466.0,-1.65,0.51,0.36
467.0,-1.45,0.36,0.67
468.0,-0.89,0.67,-0.27
469.0,-0.36,0.6,-0.67
470.0,0.01,0.06,-0.02
472.0,-0.19,-0.25,-0.09
473.0,-0.25,-0.29,-0.11
474.0,-0.22,-0.2,-0.12
475.0,-0.12,-0.32,0.08
476.0,-0.67,0.9,0.97
477.0,-1.79,1.95,1.62
478.0,-1.94,1.14,1.9
479.0,0.04,-0.5,0.28
480.0,-2.0,1.74,0.84
482.0,-2.0,2.0,-0.84
483.0,-0.15,-0.94,-1.25
484.0,-0.4,-2.0,2.0
485.0,-0.75,0.29,-2.0
486.0,-1.64,1.84,-0.52
487.0,-0.13,0.74,-0.63
488.0,-0.68,0.38,-0.08
489.0,-0.71,0.22,0.31
490.0,-0.72,0.41,0.1
491.0,-0.49,0.55,0.01
493.0,-0.54,0.83,0.13
494.0,-1.02,0.9,0.2
495.0,-0.82,1.13,0.4
496.0,-1.18,0.87,-0.01
497.0,-1.47,0.47,-0.17
498.0,-1.61,0.71,-0.13
499.0,-1.57,0.29,0.57
500.0,-0.67,0.48,-0.57
501.0,-0.5,0.6,-0.86
503.0,-0.17,0.16,0.0
504.0,-0.27,-0.49,-0.07
505.0,-0.22,-0.39,0.19
506.0,-0.64,0.99,1.09
507.0,-2.0,2.0,2.0
508.0,0.16,-0.26,0.11
509.0,-2.0,1.75,0.97
510.0,0.08,-0.84,-1.59
511.0,-0.45,-0.79,1.66
512.0,-1.99,1.86,-0.98
514.0,-0.04,1.58,0.9
515.0,-0.46,0.33,-0.06
516.0,-0.74,0.47,0.06
517.0,-0.71,0.34,0.17
518.0,-0.71,0.33,0.13
519.0,-0.67,0.56,0.0
520.0,-0.41,0.87,0.01
521.0,-0.97,0.86,0.14
522.0,-0.75,1.05,0.41
524.0,-0.95,1.45,-0.04
525.0,-1.24,0.27,-0.04
526.0,-1.55,0.49,-0.22
527.0,-1.8,0.42,0.32
528.0,-1.09,0.54,0.53
529.0,-0.64,0.68,-1.09
530.0,-0.08,0.28,-0.28
531.0,-0.16,-0.17,-0.19
532.0,-0.28,-0.3,0.04
533.0,-0.09,-0.13,0.16
535.0,-0.96,1.43,1.95
536.0,-0.28,-0.07,1.01
537.0,-1.6,1.8,0.54
538.0,-0.52,-1.63,0.07
539.0,-0.68,-0.11,-1.99
540.0,-1.93,1.47,-0.91
541.0,-0.32,0.49,-0.36
542.0,-0.75,0.54,0.04
543.0,-0.69,0.35,0.28
545.0,-0.61,0.44,0.08
546.0,-0.61,0.58,0.11
547.0,-0.88,0.7,0.06
548.0,-0.67,1.07,0.08
549.0,-0.87,1.72,-0.23
550.0,-1.27,0.56,0.4
551.0,-1.47,0.43,-0.06
552.0,-1.83,0.74,0.01
553.0,-1.63,0.4,0.55
555.0,-0.98,0.66,0.14
556.0,-0.79,0.68,-0.34
557.0,-0.57,0.71,-0.76
558.0,-0.4,0.67,-0.39
559.0,-0.17,0.48,0.1
560.0,-0.4,0.66,-0.32
561.0,-0.6,0.96,-0.31
562.0,-0.9,0.7,-0.51
563.0,-0.65,0.55,-0.8
564.0,-0.39,0.7,-0.81
566.0,-0.05,0.35,0.04
567.0,-0.33,0.02,-0.28
568.0,-0.4,-0.33,-0.07
569.0,-0.11,-0.28,0.3
570.0,-0.4,0.82,0.81
571.0,-2.0,2.0,2.0
572.0,0.3,-0.41,0.12
573.0,-2.0,2.0,0.86
574.0,0.44,-1.34,-0.58
576.0,-0.57,-0.87,2.0
577.0,-2.0,1.42,-0.83
578.0,0.0,1.08,1.09
579.0,-0.49,0.57,-0.44
580.0,-0.59,0.32,-0.12
581.0,-0.72,0.22,0.24
582.0,-0.62,0.45,0.01
583.0,-0.78,0.48,-0.0
584.0,-0.45,0.92,0.17
585.0,-0.8,0.73,0.14
587.0,-0.92,0.96,-0.11
588.0,-0.73,1.12,-0.04
589.0,-1.12,1.51,-0.25
590.0,-1.19,1.09,-0.01
591.0,-1.47,0.21,0.16
592.0,-1.78,0.73,-0.03
593.0,-1.53,0.5,0.42
594.0,-0.71,0.64,-0.43
595.0,-0.3,0.47,-0.49
597.0,-0.04,0.08,0.27
598.0,-0.14,-0.29,-0.22
599.0,-0.12,-0.33,-0.09
600.0,-0.26,0.56,0.27
601.0,-1.38,1.48,1.55
602.0,-0.67,-0.35,1.18
603.0,0.15,-0.41,0.24
604.0,-1.7,1.54,0.56
605.0,-2.0,2.0,0.86
606.0,-0.01,-0.12,-1.04
608.0,-0.41,-2.0,1.22
609.0,-0.83,-0.19,-0.56
610.0,-0.93,0.81,-2.0
611.0,-1.69,1.08,-1.21
612.0,-1.59,1.81,-0.19
613.0,-0.05,1.13,0.69
614.0,-0.59,0.51,-0.36
615.0,-0.48,0.27,-0.11
616.0,-0.74,0.66,-0.17
618.0,-0.48,0.49,-0.1
619.0,-0.33,0.27,-0.16
620.0,-0.56,0.52,-0.05
621.0,-0.81,0.39,0.12
622.0,-0.61,0.45,0.02
623.0,-0.49,1.02,0.12
624.0,-0.6,0.83,0.08
625.0,-0.91,0.78,0.15
626.0,-0.73,1.13,-0.3
628.0,-1.08,1.11,0.24
629.0,-1.07,1.27,0.38
630.0,-1.14,0.95,0.04
631.0,-1.56,0.49,-0.01
632.0,-1.66,0.79,-0.15
633.0,-1.67,0.6,0.07
634.0,-1.04,0.67,0.49
635.0,-0.69,0.76,-1.13
636.0,-0.36,0.54,-1.06
637.0,-0.08,0.45,0.35
639.0,-0.05,-0.14,-0.13
640.0,-0.18,-0.32,-0.16
641.0,-0.05,-0.29,0.09
642.0,-0.23,0.44,0.34
643.0,-0.55,0.89,0.95
644.0,-1.87,2.0,1.83
645.0,-0.64,-0.05,1.26
646.0,-1.0,0.12,0.99
647.0,-2.0,2.0,-0.99
649.0,-0.17,-0.64,-0.77
650.0,-0.66,-2.0,1.56
651.0,-0.64,0.0,-1.59
652.0,-1.96,1.51,-0.94
653.0,-1.18,1.66,-0.12
654.0,-0.24,1.02,0.52
655.0,-0.54,0.39,-0.21
656.0,-0.65,0.32,0.26
657.0,-0.79,0.43,0.24
658.0,-0.66,0.45,0.11
660.0,-0.76,0.62,-0.08
661.0,-0.36,1.07,0.03
662.0,-0.97,0.84,0.08
663.0,-0.85,1.05,-0.25
664.0,-0.9,0.94,0.44
665.0,-1.0,1.56,-0.32
666.0,-1.16,1.1,-0.08
667.0,-1.45,0.45,0.1
668.0,-1.69,0.8,-0.2
670.0,-1.7,0.45,0.18
671.0,-1.25,0.4,0.57
672.0,-0.84,0.67,-0.07
673.0,-0.58,0.59,-0.94
674.0,0.01,0.49,0.17
675.0,-0.2,-0.09,0.03
676.0,-0.3,-0.22,-0.06
677.0,-0.21,-0.26,-0.04
678.0,-0.13,-0.26,0.3
679.0,-0.43,0.49,0.34
681.0,-0.92,1.1,1.61
682.0,-2.0,2.0,1.88
683.0,-0.07,-0.51,0.6
684.0,-0.6,0.09,0.9
685.0,-1.75,1.78,0.34
686.0,-0.15,0.56,-0.46
687.0,-0.23,-0.98,-0.92
688.0,-0.64,-1.55,0.67
689.0,-0.39,-1.88,2.0
691.0,-0.99,0.76,-1.13
692.0,-1.9,1.41,-0.97
693.0,-1.89,2.0,-0.9
694.0,-0.52,0.59,-0.1
695.0,-0.68,0.34,0.12
696.0,-0.64,0.51,-0.13
697.0,-0.6,0.52,0.16
698.0,-0.79,0.8,0.05
699.0,-0.73,1.14,-0.22
701.0,-1.07,1.33,-0.08
702.0,-1.31,1.27,0.02
703.0,-1.69,0.41,-0.2
704.0,-2.0,0.74,0.5
705.0,-1.69,0.36,0.37
706.0,-0.82,0.78,-0.07
707.0,-0.63,0.68,-1.21
708.0,-0.16,0.4,-0.11
709.0,-0.05,-0.14,-0.03
710.0,-0.27,-0.17,-0.16
712.0,-0.16,-0.17,0.27
713.0,-0.6,0.79,0.54
714.0,-1.81,2.0,1.74
715.0,-0.85,0.15,1.57
716.0,0.33,-0.32,0.4
717.0,-2.0,2.0,0.35
718.0,-0.36,-2.0,0.8
719.0,-0.79,0.18,-1.22
720.0,-1.42,2.0,0.32
722.0,-0.35,1.14,1.12
723.0,-0.59,0.53,-0.01
724.0,-1.0,0.29,0.3
